File: v44/content/data/ReflectScan.UXD
#; C:\DIFFDAT1\Praktikum\Tom lukas\ReflectScan.raw(Diffrac Plus V1.01 file) converted by XCH V1.0
#_FILEVERSION=2
#_SITE='Deutschland'
#_USER='Administrator'
#_GONIOMETER_CODE=4885
#; D8 Theta/Theta; Special
#_SAMPLE_CHANGER_CODE=0
#_ATTACHMENTS_CODE=0
#_GONIOMETER_RADIUS=350
#_FIXED_DIVSLIT=0.600000
#_FIXED_SAMPLESLIT=0.000000
#_FIXED_DETSLIT=11.66
#_MONOCHROMATOR=0
#; None
#_THIN_FILM='N'
#_BETA_FILTER='Y'
#_FIXED_ANTISLIT=8.340000
#_ANALYZER_CODE=0
#; None
#_DATEMEASURED='26-Jun-2023 10:29:13'
#_WL_UNIT='A'
#_WL1=1.540600
#_WL2=1.544390
#_WL3=1.392220
#_WLRATIO=0.500000
#_ANODE='Cu'
#; (Data for Range number 1)
#_DRIVE='THETA'
#_STEPTIME=5.000660
#_STEPSIZE=0.005000
#_STEPMODE='C'
#_START=0.000000
#_THETA=0.000000
#_2THETA=-0.001600
#_KHI=0.000000
#_PHI=90
#_X=-2.005000
#_Y=0.500000
#_Z=0.086000
#_DIVERGENCE=0.000000
#_ANTISCATTER=0.000000
#_DETECTOR=5
#_DETECTORSLIT='unkn'
#_AUX1=0.000000
#_AUX2=0.000000
#_AUX3=0.000000
#_TIMESTARTED=4.000000
#_TEMP_RATE=-1.000000
#_TEMP_DELAY=-1.000000
#_KV=40
#_MA=35
#_RANGE_WL=1.540600
#_3DPLANE=0
#_GONIOMETER=-0.004000
#_PSDCHANNEL0=0
#_2THETACOUNTS
   0.0000    401072
   0.0050    694478
   0.0100    823366
   0.0150    690347
   0.0200    547119
   0.0250    376441
   0.0300    293457
   0.0350    276756
   0.0400    266492
   0.0450    282449
   0.0500    299683
   0.0550    291562
   0.0600    304278
   0.0650    327464
   0.0700    334095
   0.0750    344549
   0.0800    358612
   0.0850    369474
   0.0900    388018
   0.0950    407170
   0.1000    422559
   0.1050    438465
   0.1100    455417
   0.1150    473598
   0.1200    490491
   0.1250    506350
   0.1300    522191
   0.1350    538585
   0.1400    550987
   0.1450    563175
   0.1500    572635
   0.1550    575577
   0.1600    556691
   0.1650    530167
   0.1700    528273
   0.1750    562171
   0.1800    564083
   0.1850    546063
   0.1900    556457
   0.1950    591054
   0.2000    603115
   0.2050    582517
   0.2100    544711
   0.2150    512412
   0.2200    480773
   0.2250    408420
   0.2300    294300
   0.2350    180013
   0.2400    100732
   0.2450     57975
   0.2500     46018
   0.2550     51245
   0.2600     57868
   0.2650     57288
   0.2700     48674
   0.2750     34870
   0.2800     21232
   0.2850     12031
   0.2900      8992
   0.2950     11801
   0.3000     15879
   0.3050     19126
   0.3100     19681
   0.3150     16869
   0.3200     12323
   0.3250      7803
   0.3300      4537
   0.3350      3406
   0.3400      4184
   0.3450      6200
   0.3500      7859
   0.3550      8592
   0.3600      7999
   0.3650      6400
   0.3700      4556
   0.3750      2731
   0.3800      1672
   0.3850      1650
   0.3900      2410
   0.3950      3432
   0.4000      4066
   0.4050      4444
   0.4100      4050
   0.4150      3142
   0.4200      2101
   0.4250      1260
   0.4300       887
   0.4350       946
   0.4400      1298
   0.4450      1955
   0.4500      2189
   0.4550      2482
   0.4600      2231
   0.4650      1807
   0.4700      1179
   0.4750       732
   0.4800       514
   0.4850       550
   0.4900       779
   0.4950      1103
   0.5000      1358
   0.5050      1474
   0.5100      1316
   0.5150      1157
   0.5200       734
   0.5250       491
   0.5300       329
   0.5350       350
   0.5400       463
   0.5450       695
   0.5500       832
   0.5550       879
   0.5600       867
   0.5650       750
   0.5700       532
   0.5750       340
   0.5800       254
   0.5850       222
   0.5900       282
   0.5950       374
   0.6000       498
   0.6050       555
   0.6100       589
   0.6150       513
   0.6200       404
   0.6250       273
   0.6300       194
   0.6350       159
   0.6400       156
   0.6450       227
   0.6500       333
   0.6550       374
   0.6600       377
   0.6650       370
   0.6700       279
   0.6750       223
   0.6800       143
   0.6850       131
   0.6900       111
   0.6950       148
   0.7000       197
   0.7050       220
   0.7100       266
   0.7150       265
   0.7200       230
   0.7250       178
   0.7300       111
   0.7350        82
   0.7400        87
   0.7450        98
   0.7500       123
   0.7550       156
   0.7600       164
   0.7650       175
   0.7700       141
   0.7750       120
   0.7800       116
   0.7850        85
   0.7900        55
   0.7950        61
   0.8000        68
   0.8050        96
   0.8100       114
   0.8150       124
   0.8200       123
   0.8250       106
   0.8300        73
   0.8350        41
   0.8400        46
   0.8450        37
   0.8500        57
   0.8550        60
   0.8600        64
   0.8650        80
   0.8700        97
   0.8750        82
   0.8800        62
   0.8850        42
   0.8900        30
   0.8950        29
   0.9000        47
   0.9050        31
   0.9100        50
   0.9150        56
   0.9200        50
   0.9250        60
   0.9300        64
   0.9350        44
   0.9400        24
   0.9450        20
   0.9500        25
   0.9550        26
   0.9600        31
   0.9650        51
   0.9700        50
   0.9750        41
   0.9800        44
   0.9850        47
   0.9900        24
   0.9950        18
   1.0000        19
   1.0050        17
   1.0100        22
   1.0150        26
   1.0200        30
   1.0250        27
   1.0300        22
   1.0350        22
   1.0400        20
   1.0450        14
   1.0500         9
   1.0550        19
   1.0600        16
   1.0650        14
   1.0700        31
   1.0750        29
   1.0800        23
   1.0850        20
   1.0900        15
   1.0950        12
   1.1000         6
   1.1050        12
   1.1100        13
   1.1150         9
   1.1200        14
   1.1250        12
   1.1300        13
   1.1350        16
   1.1400        12
   1.1450        11
   1.1500        18
   1.1550         7
   1.1600         9
   1.1650         8
   1.1700        14
   1.1750        13
   1.1800         9
   1.1850        18
   1.1900        16
   1.1950         7
   1.2000         6
   1.2050         8
   1.2100         9
   1.2150         5
   1.2200        12
   1.2250        16
   1.2300         9
   1.2350        12
   1.2400        14
   1.2450         6
   1.2500        10
   1.2550         8
   1.2600         5
   1.2650         8
   1.2700         3
   1.2750         5
   1.2800         5
   1.2850         6
   1.2900         9
   1.2950         8
   1.3000         7
   1.3050         6
   1.3100         2
   1.3150         6
   1.3200         3
   1.3250         4
   1.3300         6
   1.3350         5
   1.3400         4
   1.3450         4
   1.3500         6
   1.3550         4
   1.3600         4
   1.3650         2
   1.3700         1
   1.3750         7
   1.3800         2
   1.3850         1
   1.3900         2
   1.3950         3
   1.4000         2
   1.4050         4
   1.4100         2
   1.4150         0
   1.4200         2
   1.4250         2
   1.4300         0
   1.4350         4
   1.4400         2
   1.4450         4
   1.4500         1
   1.4550         1
   1.4600         1
   1.4650         3
   1.4700         0
   1.4750         2
   1.4800         1
   1.4850         3
   1.4900         4
   1.4950         3
   1.5000         0
   1.5050         1
   1.5100         0
   1.5150         3
   1.5200         1
   1.5250         1
   1.5300         0
   1.5350         1
   1.5400         4
   1.5450         2
   1.5500         4
   1.5550         1
   1.5600         2
   1.5650         1
   1.5700         0
   1.5750         0
   1.5800         1
   1.5850         1
   1.5900         0
   1.5950         5
   1.6000         2
   1.6050         0
   1.6100         0
   1.6150         2
   1.6200         0
   1.6250         2
   1.6300         2
   1.6350         4
   1.6400         2
   1.6450         2
   1.6500         1
   1.6550         0
   1.6600         2
   1.6650         1
   1.6700         1
   1.6750         0
   1.6800         1
   1.6850         0
   1.6900         1
   1.6950         0
   1.7000         1
   1.7050         2
   1.7100         0
   1.7150         0
   1.7200         0
   1.7250         2
   1.7300         0
   1.7350         0
   1.7400         0
   1.7450         1
   1.7500         1
   1.7550         0
   1.7600         0
   1.7650         0
   1.7700         0
   1.7750         1
   1.7800         1
   1.7850         2
   1.7900         0
   1.7950         1
   1.8000         0
   1.8050         1
   1.8100         0
   1.8150         0
   1.8200         1
   1.8250         0
   1.8300         0
   1.8350         1
   1.8400         1
   1.8450         0
   1.8500         0
   1.8550         1
   1.8600         0
   1.8650         0
   1.8700         1
   1.8750         0
   1.8800         0
   1.8850         0
   1.8900         0
   1.8950         0
   1.9000         1
   1.9050         0
   1.9100         0
   1.9150         0
   1.9200         2
   1.9250         1
   1.9300         0
   1.9350         1
   1.9400         0
   1.9450         0
   1.9500         0
   1.9550         0
   1.9600         2
   1.9650         0
   1.9700         0
   1.9750         1
   1.9800         0
   1.9850         0
   1.9900         0
   1.9950         1
   2.0000         1
   2.0050         1
   2.0100         0
   2.0150         0
   2.0200         0
   2.0250         0
   2.0300         0
   2.0350         0
   2.0400         0
   2.0450         0
   2.0500         1
   2.0550         0
   2.0600         0
   2.0650         0
   2.0700         0
   2.0750         0
   2.0800         0
   2.0850         0
   2.0900         0
   2.0950         0
   2.1000         0
   2.1050         0
   2.1100         0
   2.1150         2
   2.1200         0
   2.1250         0
   2.1300         0
   2.1350         0
   2.1400         0
   2.1450         0
   2.1500         0
   2.1550         1
   2.1600         0
   2.1650         1
   2.1700         0
   2.1750         0
   2.1800         0
   2.1850         0
   2.1900         0
   2.1950         0
   2.2000         0
   2.2050         0
   2.2100         1
   2.2150         0
   2.2200         0
   2.2250         0
   2.2300         0
   2.2350         0
   2.2400         0
   2.2450         0
   2.2500         0
   2.2550         1
   2.2600         0
   2.2650         0
   2.2700         0
   2.2750         0
   2.2800         0
   2.2850         0
   2.2900         0
   2.2950         0
   2.3000         0
   2.3050         0
   2.3100         0
   2.3150         0
   2.3200         1
   2.3250         0
   2.3300         0
   2.3350         0
   2.3400         0
   2.3450         0
   2.3500         1
   2.3550         0
   2.3600         0
   2.3650         1
   2.3700         0
   2.3750         0
   2.3800         0
   2.3850         0
   2.3900         0
   2.3950         0
   2.4000         0
   2.4050         0
   2.4100         0
   2.4150         0
   2.4200         0
   2.4250         0
   2.4300         0
   2.4350         0
   2.4400         0
   2.4450         0
   2.4500         0
   2.4550         1
   2.4600         1
   2.4650         0
   2.4700         0
   2.4750         0
   2.4800         0
   2.4850         0
   2.4900         0
   2.4950         0
   2.5000         0